trial_number,stim_type,tone,intensity,expectation,prob_hightone_sad,gender,block_index,response_duration,predict_response_time,predict_response,predict_result,response_response_time,response_response,response_result,reward
1,angry,low,high,1,0.9,M,1,0.8,1.0070000000000618,sad,0,0.613800000000083,angry,1.0,-2
2,sad,high,low,1,0.9,F,1,0.8,0.3931000000001177,angry,0,0.5372000000002117,sad,1.0,6
3,angry,low,high,1,0.9,M,1,0.8,0.138599999999883,angry,1,0.6204999999999927,angry,1.0,-4
4,sad,high,low,1,0.9,F,1,0.8,0.1190999999998894,sad,1,0.6401999999999362,sad,1.0,-6
5,sad,high,high,1,0.9,F,1,0.8,0.2437999999999647,sad,1,0.3532999999999902,sad,1.0,29
6,angry,low,low,1,0.9,M,1,0.8,0.3474000000001069,angry,1,0.3725000000000591,angry,1.0,27
7,sad,high,high,1,0.9,M,1,0.8,0.4073000000000775,sad,1,0.6664999999999281,angry,0.0,-50
8,angry,low,low,1,0.9,F,1,0.8,0.880800000000022,angry,1,0.7442000000002054,angry,1.0,-19
9,sad,high,high,1,0.9,F,1,0.8,0.3363999999999123,sad,1,0.403699999999958,sad,1.0,24
10,sad,high,low,1,0.9,F,1,0.8,0.3209999999999127,sad,1,0.1394999999999981,sad,1.0,57
11,angry,low,low,1,0.9,M,1,0.8,2.2148999999999432,angry,1,0.4050999999998339,angry,1.0,23
12,angry,low,high,1,0.9,M,1,0.8,0.4318000000000666,angry,1,0.2412000000000489,angry,1.0,44
13,angry,low,low,1,0.9,M,1,0.8,0.5968000000002576,angry,1,0.3696000000001049,angry,1.0,29
14,sad,high,high,1,0.9,F,1,0.8,0.6176999999997861,sad,1,0.2319999999999709,sad,1.0,46
15,sad,low,low,0,0.9,M,1,0.8,0.3846000000000913,angry,0,0.1356000000001813,angry,0.0,-50
16,angry,low,high,1,0.9,M,1,0.8,0.6477000000002135,sad,0,0.4604999999999108,sad,0.0,-50
17,angry,low,high,1,0.9,M,1,0.8,0.4040999999996302,angry,1,0.2458999999998923,angry,1.0,44
18,sad,high,low,1,0.9,F,1,0.8,0.4036000000000967,sad,1,0.2195000000000391,sad,1.0,46
19,angry,high,low,0,0.9,F,1,0.8,0.4457000000002153,sad,0,0.5140999999996438,sad,0.0,-50
20,sad,high,high,1,0.9,M,1,0.8,0.5371000000001231,sad,1,0.2872000000002117,sad,1.0,38
21,angry,low,high,1,0.9,M,1,0.8,0.0717000000001917,angry,1,0.0887999999998783,angry,1.0,63
22,sad,high,low,1,0.9,F,1,0.8,0.0430000000000063,sad,1,0.2533000000003085,sad,1.0,42
23,angry,high,high,0,0.9,M,1,0.8,0.2860000000000582,sad,0,0.2308999999999059,sad,0.0,-50
24,sad,high,low,1,0.9,F,1,0.8,6.078300000000354,sad,1,0.3718999999999823,sad,1.0,27
25,angry,low,high,1,0.9,F,1,0.8,0.3967999999997573,angry,1,0.4529000000003407,angry,1.0,17
26,sad,high,low,1,0.9,M,1,0.8,0.0687999999997828,sad,1,0.2076000000000704,sad,1.0,48
27,angry,low,high,1,0.9,F,1,0.8,0.4311999999996487,angry,1,0.4201000000000476,angry,1.0,22
28,angry,low,high,1,0.9,M,1,0.8,0.3952999999999065,angry,1,0.2033999999998741,angry,1.0,48
29,sad,high,high,1,0.9,F,1,0.8,0.3862000000002581,sad,1,0.4125000000000227,sad,1.0,23
30,angry,low,low,1,0.9,M,1,0.8,0.3097999999997682,angry,1,0.2379999999999427,angry,1.0,44
31,sad,low,low,0,0.1,M,2,0.8,0.2476999999997815,angry,0,0.3023999999999205,angry,0.0,-50
32,sad,low,high,0,0.1,F,2,0.8,0.324699999999666,angry,0,0.4157000000001289,sad,1.0,21
33,angry,high,low,0,0.1,M,2,0.8,0.3808999999998832,sad,0,0.2495000000000118,sad,0.0,-50
34,sad,low,high,0,0.1,M,2,0.8,0.4817999999997937,sad,1,0.4199999999999591,sad,1.0,22
35,angry,high,low,0,0.1,F,2,0.8,0.2964999999999236,angry,1,0.2186000000001513,angry,1.0,48
36,sad,low,high,0,0.1,M,2,0.8,0.2242000000002235,sad,1,0.2158000000002857,sad,1.0,48
37,angry,high,low,0,0.1,F,2,0.8,0.1200000000000045,angry,1,0.2487999999998464,angry,1.0,44
38,sad,low,high,0,0.1,M,2,0.8,0.2137999999997646,sad,1,0.2162999999998192,sad,1.0,48
39,angry,high,high,0,0.1,F,2,0.8,0.3045000000000755,angry,1,0.3029999999999972,angry,1.0,37
40,sad,low,low,0,0.1,M,2,0.8,0.1358999999999923,sad,1,0.2321000000000594,sad,1.0,46
41,sad,low,low,0,0.1,F,2,0.8,0.1192000000002053,sad,1,0.2319999999999709,sad,1.0,46
42,angry,high,high,0,0.1,M,2,0.8,0.0782999999997855,angry,1,0.3363999999999123,angry,1.0,33
43,sad,high,high,1,0.1,F,2,0.8,0.3246000000001459,sad,1,0.2266000000001895,sad,1.0,46
44,angry,high,low,0,0.1,M,2,0.8,0.1807999999997491,sad,0,0.3187999999997828,sad,0.0,-50
45,sad,high,low,1,0.1,F,2,0.8,0.5935999999995829,angry,0,0.2158999999999196,angry,0.0,-50
46,sad,low,high,0,0.1,F,2,0.8,0.4477999999998019,angry,0,0.6197999999998274,sad,1.0,-3
47,angry,high,low,0,0.1,M,2,0.8,0.372899999999845,angry,1,0.3663000000003649,angry,1.0,29
48,sad,low,high,0,0.1,F,2,0.8,0.3258000000002994,sad,1,0.3490000000000464,sad,1.0,31
49,angry,high,low,0,0.1,M,2,0.8,0.5144999999999982,angry,1,0.2208000000002812,angry,1.0,47
50,sad,low,low,0,0.1,F,2,0.8,0.3304999999998017,sad,1,0.5723999999997886,sad,1.0,3
51,angry,high,low,0,0.1,F,2,0.8,0.0809000000003834,angry,1,0.2164000000000214,angry,1.0,48
52,sad,low,low,0,0.1,F,2,0.8,0.1210000000000945,sad,1,0.1491000000003168,sad,1.0,56
53,sad,low,high,0,0.1,M,2,0.8,0.3354000000003907,sad,1,0.3710000000000946,sad,1.0,28
54,angry,high,low,0,0.1,M,2,0.8,0.3820000000000618,angry,1,0.1033999999997377,angry,1.0,62
55,sad,low,high,0,0.1,M,2,0.8,0.3643000000004122,sad,1,0.2326999999997951,sad,1.0,46
56,sad,low,low,0,0.1,F,2,0.8,0.2902000000001408,sad,1,0.41599999999994,sad,1.0,23
57,angry,low,low,1,0.1,F,2,0.8,0.25649999999996,sad,0,0.4402000000002317,sad,0.0,-50
58,sad,low,high,0,0.1,M,2,0.8,0.393100000000004,angry,0,0.3077999999998155,angry,0.0,-50
59,angry,high,high,0,0.1,M,2,0.8,0.4273000000002867,angry,1,0.3942999999999301,angry,1.0,25
60,sad,low,low,0,0.1,F,2,0.8,0.320299999999861,sad,1,0.30370000000039,sad,1.0,36
61,angry,low,high,1,0.9,F,3,0.8,0.1044000000003961,sad,0,0.5132999999998447,angry,1.0,11
62,sad,high,low,1,0.9,M,3,0.8,0.1317000000001371,angry,0,0.3209999999999127,angry,0.0,-50
63,angry,low,low,1,0.9,M,3,0.8,0.9474999999999908,sad,0,0.2596000000000913,sad,0.0,-50
64,angry,low,high,1,0.9,F,3,0.8,1.13570000000027,sad,0,0.4524999999998726,sad,0.0,-50
65,sad,high,low,1,0.9,M,3,0.8,0.7641999999998461,sad,1,0.2252000000003136,sad,1.0,46
66,angry,low,high,1,0.9,F,3,0.8,0.0985000000000582,angry,1,0.225400000000036,angry,1.0,46
67,sad,high,low,1,0.9,F,3,0.8,0.3817999999998847,sad,1,0.3030999999996311,sad,1.0,37
68,sad,high,high,1,0.9,M,3,0.8,0.2855999999999312,sad,1,0.2531000000001313,sad,1.0,43
69,angry,low,low,1,0.9,M,3,0.8,0.1304000000000087,angry,1,0.5030999999996766,angry,1.0,12
70,sad,high,low,1,0.9,F,3,0.8,0.0811000000001058,sad,1,0.28650000000016,sad,1.0,39
71,sad,high,high,1,0.9,F,3,0.8,0.0706000000000131,sad,1,0.34050000000002,angry,0.0,-50
72,angry,high,high,0,0.9,M,3,0.8,0.1385999999999967,sad,0,0.3054999999999381,sad,0.0,-50
73,sad,high,high,1,0.9,M,3,0.8,0.3369000000000142,sad,1,0.3929999999998017,sad,1.0,25
74,angry,low,low,1,0.9,F,3,0.8,0.4416999999998552,angry,1,0.3070999999997639,angry,1.0,36
75,angry,low,high,1,0.9,F,3,0.8,0.4213000000004285,angry,1,0.2554000000000087,angry,1.0,42
76,sad,low,low,0,0.9,M,3,0.8,0.3963000000001102,angry,0,0.3933999999999287,angry,0.0,-50
77,angry,low,high,1,0.9,M,3,0.8,0.354200000000219,sad,0,0.2702999999996791,sad,0.0,-50
78,sad,high,low,1,0.9,F,3,0.8,0.4282999999998083,angry,0,0.321400000000267,angry,0.0,-50
79,angry,low,low,1,0.9,F,3,0.8,0.3708000000001448,angry,1,0.3766999999995732,sad,0.0,-50
80,sad,high,high,1,0.9,M,3,0.8,0.6747000000002572,angry,0,0.7364000000000033,sad,1.0,-17
81,angry,low,low,1,0.9,M,3,0.8,0.3980999999996584,angry,1,0.3122999999998228,angry,1.0,36
82,angry,high,high,0,0.9,F,3,0.8,0.2560000000000855,sad,0,0.2141999999996642,sad,0.0,-50
83,sad,high,high,1,0.9,F,3,0.8,1.04529999999977,sad,1,0.4047999999997955,sad,1.0,23
84,angry,low,low,1,0.9,M,3,0.8,0.3377999999997882,angry,1,0.4981000000000222,angry,1.0,13
85,angry,low,high,1,0.9,F,3,0.8,1.2312000000001715,angry,1,0.3526000000001659,angry,1.0,31
86,angry,low,low,1,0.9,F,3,0.8,0.331300000000283,angry,1,0.3658999999997832,angry,1.0,29
87,sad,high,low,1,0.9,F,3,0.8,0.410799999999881,sad,1,0.2290000000000418,sad,1.0,46
88,angry,low,high,1,0.9,M,3,0.8,0.2251000000001113,angry,1,0.2124999999998635,angry,1.0,48
89,sad,high,low,1,0.9,F,3,0.8,0.0876999999998133,sad,1,0.3212999999998374,sad,1.0,33
90,sad,high,high,1,0.9,F,3,0.8,0.9295999999997092,angry,0,0.2121000000001913,angry,0.0,-50
91,sad,high,low,1,0.4,M,4,0.8,0.3207000000002153,sad,1,0.3105000000000473,sad,1.0,36
92,sad,low,high,0,0.4,M,4,0.8,0.4895999999996547,angry,0,0.3063999999999396,angry,0.0,-50
93,angry,high,low,0,0.4,M,4,0.8,1.3753000000003794,angry,1,0.3868999999999687,angry,1.0,25
94,sad,high,high,1,0.4,F,4,0.8,0.3086999999995896,angry,0,0.228399999999965,angry,0.0,-50
95,angry,high,low,0,0.4,F,4,0.8,0.2673999999999523,angry,1,0.599400000000287,angry,1.0,0
96,sad,low,high,0,0.4,M,4,0.8,0.3351000000000113,sad,1,0.3987000000001899,sad,1.0,25
97,angry,low,high,1,0.4,F,4,0.8,0.2801999999996951,sad,0,0.035799999999881,sad,0.0,-50
98,angry,high,high,0,0.4,F,4,0.8,0.531400000000076,angry,1,0.4246000000000549,angry,1.0,21
99,angry,low,low,1,0.4,M,4,0.8,0.3318000000003849,sad,0,0.316300000000183,sad,0.0,-50
100,sad,low,low,0,0.4,M,4,0.8,0.365099999999984,sad,1,0.403599999999642,angry,0.0,-50
101,sad,high,low,1,0.8,F,5,0.8,0.1052999999997155,sad,1,0.3882999999998446,sad,1.0,25
102,angry,low,high,1,0.8,F,5,0.8,0.2873999999999341,angry,1,0.548200000000179,angry,1.0,6
103,sad,high,low,1,0.8,M,5,0.8,0.4221000000000003,angry,0,0.6577000000002045,sad,1.0,-8
104,sad,high,high,1,0.8,M,5,0.8,0.2635999999999967,sad,1,0.2881000000002132,sad,1.0,38
105,angry,low,high,1,0.8,F,5,0.8,0.8369000000002416,angry,1,0.2703999999998814,angry,1.0,40
106,sad,high,low,1,0.8,M,5,0.8,0.6053000000001703,sad,1,0.3874999999998181,sad,1.0,25
107,angry,low,low,1,0.8,F,5,0.8,0.5305000000000746,angry,1,0.4695000000001528,angry,1.0,16
108,sad,high,low,1,0.8,M,5,0.8,0.6812999999997373,angry,0,0.3695000000000163,angry,0.0,-50
109,angry,low,high,1,0.8,M,5,0.8,0.6810999999995602,sad,0,0.453099999999722,sad,0.0,-50
110,angry,low,low,1,0.8,F,5,0.8,0.6026000000001659,sad,0,0.5735999999999422,angry,1.0,3
111,sad,high,low,1,0.8,M,5,0.8,0.60349999999994,angry,0,0.3949000000004616,angry,0.0,-50
112,angry,high,high,0,0.8,F,5,0.8,0.4939999999999145,angry,1,0.5294999999998709,angry,1.0,8
113,sad,high,high,1,0.8,F,5,0.8,0.4922999999998865,angry,0,0.4220000000000254,angry,0.0,-50
114,angry,low,low,1,0.8,M,5,0.8,0.4793999999999414,sad,0,0.3212999999998374,sad,0.0,-50
115,sad,low,low,0,0.8,F,5,0.8,0.4982000000002244,sad,1,0.4691000000000258,angry,0.0,-50
116,sad,high,high,1,0.8,M,5,0.8,0.7091999999997824,angry,0,0.3852999999999156,angry,0.0,-50
117,angry,low,low,1,0.8,F,5,0.8,0.4984999999999218,angry,1,0.2653999999999996,angry,1.0,42
118,sad,low,high,0,0.8,M,5,0.8,0.314600000000155,angry,0,0.2247000000002117,angry,0.0,-50
119,angry,low,low,1,0.8,M,5,0.8,0.4075999999995474,angry,1,0.5571000000002186,angry,1.0,4
120,sad,high,high,1,0.8,F,5,0.8,0.404700000000048,sad,1,0.4301000000002659,sad,1.0,21
121,angry,low,low,1,0.8,F,5,0.8,0.2699999999999818,angry,1,0.3538000000003194,sad,0.0,-50
122,sad,low,high,0,0.8,F,5,0.8,1.264299999999821,sad,1,0.319700000000239,sad,1.0,35
123,angry,high,low,0,0.8,M,5,0.8,0.285200000000259,angry,1,0.2409999999999854,angry,1.0,44
124,angry,low,high,1,0.8,M,5,0.8,0.0801000000001295,sad,0,0.2732999999998355,sad,0.0,-50
125,sad,high,high,1,0.8,F,5,0.8,0.1216000000001713,sad,1,0.3126999999997224,sad,1.0,36
126,angry,low,low,1,0.8,F,5,0.8,0.2710000000001855,sad,0,0.2934999999999945,angry,1.0,38
127,sad,high,high,1,0.8,M,5,0.8,0.1949999999999363,sad,1,0.4927000000002408,angry,0.0,-50
128,sad,high,low,1,0.8,F,5,0.8,0.3373999999998887,sad,1,0.1595999999999549,sad,1.0,54
129,angry,low,low,1,0.8,M,5,0.8,0.1871000000001004,angry,1,0.3630000000000564,sad,0.0,-50
130,angry,high,high,0,0.8,M,5,0.8,0.5147000000001754,angry,1,0.4830000000001746,angry,1.0,15
131,angry,low,low,1,0.8,F,5,0.8,0.1369999999999436,sad,0,0.247899999999845,sad,0.0,-50
132,sad,high,high,1,0.8,F,5,0.8,0.1143999999999323,angry,0,0.3022999999998319,angry,0.0,-50
133,sad,high,low,1,0.8,M,5,0.8,0.3215000000000145,angry,0,0.3333999999999832,angry,0.0,-50
134,angry,low,high,1,0.8,M,5,0.8,0.2722000000001117,angry,1,0.4493000000004485,sad,0.0,-50
135,sad,high,low,1,0.8,M,5,0.8,0.3145000000001801,angry,0,0.6198000000001684,angry,0.0,-50
136,angry,low,high,1,0.8,F,5,0.8,0.1811000000000149,sad,0,0.4036000000000967,sad,0.0,-50
137,sad,low,low,0,0.8,F,5,0.8,0.6905000000001564,angry,0,0.2049999999999272,angry,0.0,-50
138,angry,low,high,1,0.8,M,5,0.8,0.2208000000002812,angry,1,0.5932000000000244,angry,1.0,0
139,sad,high,high,1,0.8,M,5,0.8,0.1749999999999545,sad,1,0.6206999999997151,sad,1.0,-4
140,sad,high,high,1,0.8,F,5,0.8,0.3017999999999574,sad,1,0.5421000000001186,sad,1.0,6
141,angry,high,low,0,0.8,F,5,0.8,0.1079000000001997,sad,0,0.6415000000001783,angry,1.0,-6
142,angry,low,low,1,0.8,M,5,0.8,0.2903999999998632,angry,1,0.3769999999999527,sad,0.0,-50
143,angry,low,high,1,0.8,M,5,0.8,0.4700000000000273,angry,1,0.2328000000002248,angry,1.0,46
144,sad,high,low,1,0.8,F,5,0.8,0.3307000000002063,sad,1,0.2698000000002594,angry,0.0,-50
145,angry,high,low,0,0.8,M,5,0.8,0.7141000000001441,sad,0,0.5203999999998814,sad,0.0,-50
146,angry,low,low,1,0.8,F,5,0.8,0.2862999999999829,angry,1,0.0303999999998723,angry,1.0,71
147,sad,high,high,1,0.8,M,5,0.8,0.0723000000002684,sad,1,0.1066000000000713,angry,0.0,-50
148,sad,high,low,1,0.8,M,5,0.8,0.2258999999999105,angry,0,0.4912999999999101,sad,1.0,13
149,sad,low,high,0,0.8,F,5,0.8,0.0873999999998886,sad,1,0.5531999999998334,angry,0.0,-50
150,sad,high,low,1,0.8,M,5,0.8,0.2117999999998119,sad,1,0.4084000000000287,sad,1.0,23
151,angry,high,high,0,0.2,F,6,0.8,0.103399999999965,sad,0,0.2721000000001368,sad,0.0,-50
152,sad,low,low,0,0.2,F,6,0.8,0.2542000000000826,angry,0,0.570299999999861,sad,1.0,2
153,angry,high,high,0,0.2,F,6,0.8,0.3201999999996587,sad,0,0.3675000000000636,sad,0.0,-50
154,sad,low,high,0,0.2,M,6,0.8,0.1772000000000844,angry,0,0.3032000000000607,angry,0.0,-50
155,angry,high,low,0,0.2,M,6,0.8,0.0468999999998231,sad,0,0.4217000000001007,sad,0.0,-50
156,sad,low,high,0,0.2,M,6,0.8,3.120600000000195,sad,1,0.2420999999999367,sad,1.0,44
157,angry,high,low,0,0.2,F,6,0.8,0.069700000000239,angry,1,0.2900999999999385,angry,1.0,38
158,angry,high,high,0,0.2,M,6,0.8,0.2047000000002299,angry,1,0.1286000000002332,angry,1.0,58
159,sad,low,high,0,0.2,F,6,0.8,0.1423999999997249,sad,1,0.0220000000001618,sad,1.0,71
160,angry,high,high,0,0.2,F,6,0.8,0.470600000000104,angry,1,0.2813999999998486,angry,1.0,40
161,angry,low,low,1,0.2,M,6,0.8,0.2046000000000276,sad,0,0.0091999999997369,sad,0.0,-50
162,sad,low,low,0,0.2,F,6,0.8,0.331300000000283,sad,1,0.3007000000002335,angry,0.0,-50
163,angry,high,high,0,0.2,M,6,0.8,0.4069999999999254,angry,1,0.4821999999996933,angry,1.0,15
164,sad,low,high,0,0.2,F,6,0.8,0.31899999999996,sad,1,0.3713000000002466,sad,1.0,28
165,sad,high,low,1,0.2,M,6,0.8,0.3394000000000687,angry,0,0.1691000000000713,angry,0.0,-50
166,sad,low,low,0,0.2,M,6,0.8,0.148200000000088,sad,1,0.248600000000124,sad,1.0,44
167,angry,high,high,0,0.2,F,6,0.8,0.5351000000002841,sad,0,0.4152999999998883,sad,0.0,-50
168,angry,low,low,1,0.2,F,6,0.8,0.4621000000001913,angry,1,0.5707999999997355,angry,1.0,2
169,sad,low,high,0,0.2,F,6,0.8,0.5589999999999691,angry,0,0.3305000000000291,angry,0.0,-50
170,sad,low,low,0,0.2,M,6,0.8,0.7288999999998396,sad,1,0.4032999999999447,sad,1.0,23
171,angry,low,high,1,0.2,M,6,0.8,0.8075000000001182,sad,0,0.4596000000001368,angry,1.0,17
172,angry,high,high,0,0.2,F,6,0.8,0.4723999999998796,angry,1,0.3865999999995892,angry,1.0,25
173,sad,high,low,1,0.2,M,6,0.8,0.8541000000000167,sad,1,0.4467000000001917,sad,1.0,19
174,sad,low,high,0,0.2,M,6,0.8,0.8750999999995202,sad,1,0.486299999999801,sad,1.0,13
175,angry,high,high,0,0.2,F,6,0.8,0.503800000000183,angry,1,0.3243999999999687,angry,1.0,33
176,angry,low,low,1,0.2,F,6,0.8,1.2419999999999618,angry,1,0.4027000000000953,sad,0.0,-50
177,sad,low,high,0,0.2,M,6,0.8,0.6132999999999811,angry,0,0.4827000000002499,angry,0.0,-50
178,angry,high,high,0,0.2,M,6,0.8,0.5948000000003049,sad,0,0.2842999999998028,sad,0.0,-50
179,sad,low,high,0,0.2,M,6,0.8,0.552199999999857,sad,1,0.4710000000000036,angry,0.0,-50
180,sad,low,low,0,0.2,F,6,0.8,0.7197999999998501,sad,1,0.4026999999998679,sad,1.0,23
181,sad,high,high,1,0.2,F,6,0.8,1.1873999999997975,angry,0,0.4885999999999058,sad,1.0,13
182,angry,high,low,0,0.2,M,6,0.8,0.3382000000001426,angry,1,0.5032999999998538,sad,0.0,-50
183,sad,low,low,0,0.2,F,6,0.8,0.7473999999999705,sad,1,0.4533999999998741,sad,1.0,18
184,angry,high,high,0,0.2,M,6,0.8,0.6971000000000913,angry,1,0.5860000000000127,angry,1.0,2
185,angry,high,high,0,0.2,F,6,0.8,0.8043000000002394,sad,0,0.5207000000000335,angry,1.0,8
186,sad,high,low,1,0.2,M,6,0.8,0.4540999999999258,angry,0,0.5557000000003427,angry,0.0,-50
187,angry,high,high,0,0.2,M,6,0.8,0.673099999999522,sad,0,0.526199999999335,angry,1.0,8
188,angry,high,low,0,0.2,F,6,0.8,1.1943999999998596,sad,0,0.6760999999996784,angry,1.0,-10
189,sad,low,high,0,0.2,F,6,0.8,0.7031999999999243,sad,1,0.4526999999998224,angry,0.0,-50
190,angry,high,low,0,0.2,F,6,0.8,0.5044000000002598,angry,1,0.5235999999999876,angry,1.0,8
191,sad,low,low,0,0.2,M,6,0.8,0.5425000000000182,angry,0,0.5298999999999978,angry,0.0,-50
192,sad,low,high,0,0.2,F,6,0.8,0.5264999999999418,sad,1,0.6036000000008244,sad,1.0,-2
193,angry,low,high,1,0.2,M,6,0.8,0.9717999999998028,sad,0,0.5710999999992055,angry,1.0,2
194,angry,high,low,0,0.2,M,6,0.8,0.4775999999992564,sad,0,0.570100000000366,angry,1.0,2
195,angry,low,high,1,0.2,F,6,0.8,0.3424999999997453,angry,1,0.441800000000967,angry,1.0,19
196,sad,low,low,0,0.2,M,6,0.8,1.2128999999999903,sad,1,0.5018000000000029,sad,1.0,12
197,angry,high,low,0,0.2,F,6,0.8,1.3338999999996304,sad,0,0.4193000000009306,sad,0.0,-50
198,sad,low,high,0,0.2,F,6,0.8,0.5617000000002008,sad,1,0.5601999999998952,angry,0.0,-50
199,angry,high,high,0,0.2,M,6,0.8,0.7102999999997337,angry,1,0.4437000000002626,angry,1.0,19
200,sad,low,high,0,0.2,F,6,0.8,2.0356000000001586,angry,0,,,,-200
