trial_number,stim_type,tone,intensity,expectation,prob_hightone_sad,gender,block_index,response_duration,predict_response_time,predict_response,predict_result,response_response_time,response_response,response_result,reward
1,sad,high,low,1,0.8,F,1,0.8,0.7358000000007223,sad,1,0.589300000000776,sad,1,0
2,angry,low,high,1,0.8,F,1,0.8,0.4178000000007387,angry,1,0.4883999999985349,angry,1,13
3,sad,high,low,1,0.8,M,1,0.8,0.3683000000007723,sad,1,0.2351000000014664,sad,1,44
4,sad,high,high,1,0.8,M,1,0.8,0.369100000001481,sad,1,0.2198999999985176,sad,1,46
5,angry,low,high,1,0.8,F,1,0.8,0.023300000000745,angry,1,0.2828000000007478,angry,1,40
6,sad,high,low,1,0.8,M,1,0.8,0.3695000000000163,sad,1,0.3146999999992772,sad,1,35
7,angry,low,low,1,0.8,F,1,0.8,0.2677999999970097,angry,1,0.2820000000000391,angry,1,40
8,sad,high,low,1,0.8,M,1,0.8,0.9038999999984868,sad,1,0.0978000000007455,sad,1,63
9,angry,low,high,1,0.8,M,1,0.8,0.3678000000007273,angry,1,0.2051999999992517,angry,1,48
10,angry,low,low,1,0.8,F,1,0.8,0.3851000000014437,angry,1,0.0667999999969879,angry,1,66
11,sad,high,low,1,0.8,M,1,0.8,0.251199999999244,sad,1,0.090400000002262,sad,1,63
12,angry,high,high,0,0.8,F,1,0.8,0.3257999999970025,sad,0,0.0582000000029552,sad,0,-50
13,sad,high,high,1,0.8,F,1,0.8,0.3211000000014792,angry,0,0.0645000000000095,angry,0,-50
14,angry,low,low,1,0.8,M,1,0.8,1.6008000000007314,angry,1,0.239499999999964,angry,1,44
15,sad,low,low,0,0.8,F,1,0.8,0.2846999999992476,angry,0,0.0711999999992372,angry,0,-50
16,sad,high,high,1,0.8,M,1,0.0,0.790899999998544,angry,0,0.4562999999970429,angry,0,-50
17,angry,low,low,1,0.8,F,1,0.8,1.2214999999999918,angry,1,0.3205999999977962,angry,1,33
18,sad,low,high,0,0.8,M,1,0.8,0.2025999999976875,angry,0,0.1196000000014692,angry,0,-50
19,angry,low,low,1,0.8,M,1,0.8,0.3875999999978603,sad,0,0.0556999999992058,sad,0,-50
20,sad,high,high,1,0.8,F,1,0.8,0.5866000000015674,angry,0,0.4995000000000118,angry,0,-50
21,angry,low,low,1,0.8,F,1,0.8,2.10160000000144,angry,1,0.287300000000755,angry,1,38
22,sad,low,high,0,0.8,F,1,0.8,0.0836999999993395,angry,0,0.2535000000000309,angry,0,-50
23,angry,high,low,0,0.8,M,1,0.8,0.9081999999992832,angry,1,0.4721000000014328,sad,0,-50
24,angry,low,high,1,0.8,M,1,0.8,0.7227999999970507,sad,0,0.5040999999977203,sad,0,-50
25,sad,high,high,1,0.8,F,1,0.8,1.3900999999976875,sad,1,0.4874000000022533,angry,0,-50
26,angry,low,low,1,0.8,F,1,0.8,1.2690000000000057,angry,1,0.2958000000007814,angry,1,38
27,sad,high,high,1,0.8,M,1,0.8,0.2916999999993095,sad,1,0.3366999999992686,sad,1,31
28,sad,high,low,1,0.8,F,1,0.8,0.369099999997843,sad,1,0.4528999999985217,sad,1,17
29,angry,low,low,1,0.8,M,1,0.8,0.2996000000014192,angry,1,0.2368999999985135,angry,1,44
30,angry,high,high,0,0.8,M,1,0.8,0.3320999999978085,sad,0,0.1318999999984953,sad,0,-50
31,angry,low,low,1,0.8,F,1,0.8,0.271699999999214,sad,0,0.3053999999984853,sad,0,-50
32,sad,high,high,1,0.8,F,1,0.8,0.3204000000022233,sad,1,0.4238000000008242,sad,1,21
33,sad,high,low,1,0.8,M,1,0.8,0.3356000000014774,sad,1,0.0048000000007277,sad,1,73
34,angry,low,high,1,0.8,M,1,0.8,0.2232999999970388,angry,1,0.0046000000014601,angry,1,73
35,sad,high,low,1,0.8,M,1,0.8,0.3350000000000364,sad,1,0.0819999999999936,sad,1,65
36,angry,low,high,1,0.8,F,1,0.8,0.2882999999970934,angry,1,0.1866000000014764,angry,1,50
37,sad,low,low,0,0.8,F,1,0.8,0.0428000000007386,angry,0,0.0058999999985189,angry,0,-50
38,angry,low,high,1,0.8,M,1,0.8,0.084800000000655,angry,1,0.3704000000022915,angry,1,27
39,sad,high,high,1,0.8,M,1,0.8,0.0312999999970315,sad,1,0.0474000000023124,sad,1,69
40,sad,high,high,1,0.8,F,1,0.8,0.030800000000795,sad,1,0.0159000000022615,sad,1,73
41,angry,high,low,0,0.8,F,1,0.8,0.1024999999999636,sad,0,0.0045000000000072,sad,0,-50
42,angry,low,low,1,0.8,M,1,0.8,0.3020000000000209,sad,0,0.0393000000007077,sad,0,-50
43,angry,low,high,1,0.8,M,1,0.8,0.0861999999992804,angry,1,0.0045999999977084,angry,1,73
44,sad,high,low,1,0.8,F,1,0.8,0.3709999999999809,sad,1,0.0985000000000582,sad,1,63
45,angry,high,low,0,0.8,M,1,0.8,0.0170000000000527,sad,0,0.0731999999992467,sad,0,-50
46,angry,low,low,1,0.8,F,1,0.8,0.3738000000007559,sad,0,0.1316000000015265,sad,0,-50
47,sad,high,high,1,0.8,M,1,0.8,0.050700000002962,sad,1,0.1650000000000773,sad,1,54
48,sad,high,low,1,0.8,M,1,0.8,0.1381000000014864,sad,1,0.0047999999969761,sad,1,73
49,sad,low,high,0,0.8,F,1,0.8,0.1028000000007978,angry,0,0.0187999999969861,angry,0,-50
50,sad,high,low,1,0.8,M,1,0.8,0.3026999999992767,angry,0,0.0153999999985217,angry,0,-50
51,angry,high,high,0,0.2,F,2,0.8,1.9706000000014685,sad,0,0.0471999999992931,sad,0,-50
52,sad,low,low,0,0.2,F,2,0.8,0.8576000000014119,sad,1,0.0471000000014782,sad,1,69
53,angry,high,high,0,0.2,F,2,0.8,0.0536000000014382,angry,1,0.0821999999992613,angry,1,65
54,sad,low,high,0,0.2,M,2,0.8,0.1354000000022779,angry,0,0.0708000000007587,angry,0,-50
55,angry,high,low,0,0.2,M,2,0.8,0.6196000000014692,angry,1,0.153600000001461,angry,1,54
56,sad,low,high,0,0.2,M,2,0.8,0.2683000000007496,angry,0,0.4195999999977857,angry,0,-50
57,angry,high,low,0,0.2,F,2,0.8,1.2186000000015156,sad,0,0.0628999999985353,sad,0,-50
58,angry,high,high,0,0.2,M,2,0.8,0.1233000000006541,angry,1,0.0709000000022115,angry,1,65
59,sad,low,high,0,0.2,F,2,0.8,0.1181999999992058,sad,1,0.0378000000007432,sad,1,69
60,angry,high,high,0,0.2,F,2,0.8,0.1346000000014555,angry,1,0.072399999998538,angry,1,65
61,angry,low,low,1,0.2,M,2,0.8,0.0078000000007705,sad,0,0.0380000000000109,sad,0,-50
62,sad,low,low,0,0.2,F,2,0.8,0.2853000000008023,angry,0,0.0386000000015656,angry,0,-50
63,angry,high,high,0,0.2,M,2,0.8,0.4349000000022442,angry,1,0.0744000000022424,angry,1,65
64,sad,low,high,0,0.2,F,2,0.8,0.0581000000015592,sad,1,0.0583000000007132,sad,1,67
65,sad,high,low,1,0.2,M,2,0.8,0.0678999999985308,angry,0,0.0579999999999927,angry,0,-50
66,sad,low,low,0,0.2,M,2,0.8,0.6476000000014892,angry,0,0.1545999999976857,angry,0,-50
67,angry,high,high,0,0.2,F,2,0.8,0.5029999999999291,sad,0,0.1207999999969615,sad,0,-50
68,angry,low,low,1,0.2,F,2,0.8,1.0189000000023043,angry,1,0.1481999999991785,angry,1,56
69,sad,low,high,0,0.2,F,2,0.8,0.0223999999984698,angry,0,0.0705999999977393,angry,0,-50
70,sad,low,low,0,0.2,M,2,0.8,0.1003999999984444,sad,1,0.0458999999984826,sad,1,69
71,angry,low,high,1,0.2,M,2,0.8,0.0313999999984844,sad,0,0.0153000000007068,sad,0,-50
72,angry,high,high,0,0.2,F,2,0.8,2.5862999999970953,sad,0,0.0459000000022342,sad,0,-50
73,sad,high,low,1,0.2,M,2,0.8,0.2680000000000291,angry,0,0.0386999999992667,angry,0,-50
74,sad,low,high,0,0.2,M,2,0.8,0.6850000000000591,sad,1,0.0196000000015601,sad,1,71
75,angry,high,high,0,0.2,F,2,0.8,0.0396000000015419,angry,1,0.0701000000015028,angry,1,65
76,angry,low,low,1,0.2,F,2,0.8,0.4910999999978003,sad,0,0.0978000000008023,sad,0,-50
77,sad,low,high,0,0.2,M,2,0.8,0.0086000000014792,angry,0,0.0484999999999899,angry,0,-50
78,angry,high,high,0,0.2,M,2,0.8,1.3344000000022334,angry,1,0.0177000000029465,angry,1,71
79,sad,low,high,0,0.2,M,2,0.8,2.044300000000703,angry,0,0.3549000000022033,angry,0,-50
80,sad,low,low,0,0.2,F,2,0.8,1.2513000000006969,sad,1,0.0478999999985489,sad,1,69
81,sad,high,high,1,0.2,F,2,0.8,0.0194000000021787,angry,0,0.0564000000022133,angry,0,-50
82,angry,high,low,0,0.2,M,2,0.8,0.1538999999985435,sad,0,0.0221999999992021,sad,0,-50
83,sad,low,low,0,0.2,F,2,0.8,0.4691000000015037,sad,1,0.0577999999969733,sad,1,67
84,angry,high,high,0,0.2,M,2,0.8,0.0088000000007468,angry,1,0.1535000000000081,angry,1,54
85,angry,high,high,0,0.2,F,2,0.8,0.069599999997763,angry,1,0.0049999999999954,angry,1,73
86,sad,high,low,1,0.2,M,2,0.8,0.0454999999999472,angry,0,0.05600000000004,angry,0,-50
87,angry,high,high,0,0.2,M,2,0.8,0.0353000000006886,sad,0,0.0871999999992567,sad,0,-50
88,angry,high,low,0,0.2,F,2,0.8,0.0094000000021878,angry,1,0.0045999999977084,angry,1,73
89,sad,low,high,0,0.2,F,2,0.8,0.041800000000876,sad,1,0.1316000000012991,sad,1,58
90,angry,high,low,0,0.2,F,2,0.8,0.071399999998448,angry,1,0.1242000000031566,angry,1,58
91,sad,low,low,0,0.2,M,2,0.8,0.1519000000021151,sad,1,0.0588999999984025,sad,1,67
92,sad,low,high,0,0.2,F,2,0.8,0.1016999999992549,sad,1,0.0718999999985499,sad,1,65
93,angry,low,high,1,0.2,M,2,0.8,0.0867000000030202,sad,0,0.0813999999984389,sad,0,-50
94,angry,high,low,0,0.2,M,2,0.8,0.0136000000015883,sad,0,0.0184999999999035,sad,0,-50
95,angry,low,high,1,0.2,F,2,0.8,0.5521000000014737,sad,0,0.0709999999999126,sad,0,-50
96,sad,low,low,0,0.2,M,2,0.8,0.009100000001581,angry,0,0.0815999999977066,angry,0,-50
97,angry,high,low,0,0.2,F,2,0.8,0.051900000002206,angry,1,0.1313000000006923,angry,1,58
98,sad,low,high,0,0.2,F,2,0.8,0.7853999999986172,angry,0,0.1038999999984753,angry,0,-50
99,angry,high,high,0,0.2,M,2,0.8,0.0086999999994077,angry,1,0.0223000000007687,angry,1,71
100,sad,low,high,0,0.2,F,2,0.8,0.1183999999984735,sad,1,0.0048999999985426,sad,1,73
101,sad,high,low,1,0.4,M,3,0.8,0.0054999999999836,angry,0,0.1369999999999436,angry,0,-50
102,sad,low,high,0,0.4,M,3,0.8,0.451099999997723,angry,0,0.1038999999984753,angry,0,-50
103,angry,high,low,0,0.4,M,3,0.8,0.0762000000029274,angry,1,0.4146999999993568,angry,1,23
104,sad,high,high,1,0.4,F,3,0.8,0.4390000000000782,angry,0,0.0891000000015083,angry,0,-50
105,angry,high,low,0,0.4,F,3,0.8,2.9691999999993186,sad,0,0.4703999999983352,angry,1,15
106,sad,low,high,0,0.4,M,3,0.8,0.5851000000016029,sad,1,0.5161000000016429,sad,1,10
107,angry,low,high,1,0.4,F,3,0.8,1.2073999999984153,angry,1,0.3521000000014282,angry,1,29
108,angry,high,high,0,0.4,F,3,0.8,0.5020000000001801,sad,0,0.6028000000007978,angry,1,-2
109,angry,low,low,1,0.4,M,3,0.8,0.3191000000015265,sad,0,0.6913000000008651,sad,0,-50
110,sad,low,low,0,0.4,M,3,0.8,0.5342000000030112,angry,0,0.1201000000014573,angry,0,-50
111,angry,low,high,1,0.9,M,4,0.8,0.8019999999999072,sad,0,0.0058999999985189,sad,0,-50
112,sad,high,low,1,0.9,F,4,0.8,0.5855000000001382,angry,0,0.1543000000006031,angry,0,-50
113,angry,low,high,1,0.9,M,4,0.8,0.1069999999999709,angry,1,0.1038000000007741,angry,1,60
114,sad,high,low,1,0.9,F,4,0.8,0.0676999999991494,sad,1,0.0484000000021751,sad,1,69
115,sad,high,high,1,0.9,F,4,0.8,0.0147000000029038,sad,1,0.1148000000007414,sad,1,60
116,angry,low,low,1,0.9,M,4,0.8,0.0097999999970852,angry,1,0.1138999999984662,angry,1,61
117,sad,high,high,1,0.9,M,4,0.8,0.0172000000029584,sad,1,0.0045999999977084,sad,1,73
118,angry,low,low,1,0.9,F,4,0.8,0.024499999999989,angry,1,0.0409999999999399,angry,1,69
119,sad,high,high,1,0.9,F,4,0.8,0.1283000000007632,sad,1,0.0977000000029875,sad,1,63
120,sad,high,low,1,0.9,F,4,0.8,0.1141000000013718,sad,1,0.0649000000023534,sad,1,67
121,angry,low,low,1,0.9,M,4,0.8,0.0402999999971598,angry,1,0.0711999999994077,angry,1,65
122,angry,low,high,1,0.9,M,4,0.8,0.0481999999992694,angry,1,0.0191000000013445,angry,1,71
123,angry,low,low,1,0.9,M,4,0.8,0.0113000000008014,angry,1,0.014399999998659,angry,1,73
124,sad,high,high,1,0.9,F,4,0.8,0.0851999999990766,sad,1,0.1208000000008269,sad,1,58
125,sad,low,low,0,0.9,M,4,0.8,0.1013999999984207,angry,0,0.0604999999998199,angry,0,-50
126,angry,low,high,1,0.9,M,4,0.8,0.1195000000000163,sad,0,0.4390999999977794,angry,1,19
127,angry,low,high,1,0.9,M,4,0.8,0.2693000000006122,angry,1,0.4140999999976884,angry,1,23
128,sad,high,low,1,0.9,F,4,0.8,0.1020999999977902,sad,1,0.0194999999998799,sad,1,71
129,angry,high,low,0,0.9,F,4,0.8,0.0131999999991876,sad,0,0.3310999999976047,sad,0,-50
130,sad,high,high,1,0.9,M,4,0.8,0.0518000000006395,angry,0,0.4371999999993932,angry,0,-50
131,angry,low,high,1,0.9,M,4,0.8,0.7018000000007305,angry,1,0.047699999999395,angry,1,69
132,sad,high,low,1,0.9,F,4,0.8,0.1331999999993058,sad,1,0.0590000000001964,sad,1,67
133,angry,high,high,0,0.9,M,4,0.8,0.0901999999991858,sad,0,0.0703000000007705,sad,0,-50
134,sad,high,low,1,0.9,F,4,0.8,0.7691000000013446,sad,1,0.6474000000023352,sad,1,-6
135,angry,low,high,1,0.9,F,4,0.8,0.3356999999994059,angry,1,0.065100000001621,angry,1,67
136,sad,high,low,1,0.9,M,4,0.8,0.5842999999968015,sad,1,0.0549000000021351,sad,1,67
137,angry,low,high,1,0.9,F,4,0.8,0.0078000000007705,angry,1,0.0472000000029311,angry,1,69
138,angry,low,high,1,0.9,M,4,0.8,0.0685999999977866,sad,0,0.0884999999998399,sad,0,-50
139,sad,high,high,1,0.9,F,4,0.8,0.0731999999993604,angry,0,0.0705000000000382,angry,0,-50
140,angry,low,low,1,0.9,M,4,0.8,1.086999999999989,angry,1,0.5361999999990985,angry,1,6
141,sad,low,low,0,0.1,M,5,0.8,0.007699999999204,angry,0,0.0193000000008396,angry,0,-50
142,sad,low,high,0,0.1,F,5,0.8,0.7193000000006577,angry,0,0.369699999999284,angry,0,-50
143,angry,high,low,0,0.1,M,5,0.8,0.008899999998448,angry,1,0.0788000000006832,angry,1,65
144,sad,low,high,0,0.1,M,5,0.8,0.1511000000014064,sad,1,0.0413000000007741,sad,1,69
145,angry,high,low,0,0.1,F,5,0.8,0.1411000000014155,angry,1,0.0253999999986263,angry,1,71
146,sad,low,high,0,0.1,M,5,0.8,0.0853000000006432,sad,1,0.071399999998448,sad,1,65
147,angry,high,low,0,0.1,F,5,0.8,0.1193000000007487,angry,1,0.0370000000000345,angry,1,68
148,sad,low,high,0,0.1,M,5,0.8,0.1020999999977902,sad,1,0.0816999999992731,sad,1,65
149,angry,high,high,0,0.1,F,5,0.8,0.1411000000014155,angry,1,0.1044999999999163,angry,1,61
150,sad,low,low,0,0.1,M,5,0.8,0.1354999999998654,sad,1,0.0580999999979212,sad,1,67
151,sad,low,low,0,0.1,F,5,0.8,0.0681999999992513,sad,1,0.0150000000001,sad,1,73
152,angry,high,high,0,0.1,M,5,0.8,0.0189000000023042,angry,1,0.0084000000022115,angry,1,73
153,sad,high,high,1,0.1,F,5,0.8,0.1313000000009196,angry,0,0.0589000000022679,angry,0,-50
154,angry,high,low,0,0.1,M,5,0.8,0.1358000000009269,sad,0,0.0050000000001091,sad,0,-50
155,sad,high,low,1,0.1,F,5,0.8,3.7223999999985153,angry,0,0.4153000000007978,sad,1,23
156,sad,low,high,0,0.1,F,5,0.8,0.4202000000029784,angry,0,0.0878000000006977,angry,0,-50
157,angry,high,low,0,0.1,M,5,0.8,0.1061999999992622,angry,1,0.2868000000007669,angry,1,38
158,sad,low,high,0,0.1,F,5,0.8,0.1409000000021478,sad,1,0.0873000000008232,sad,1,63
159,angry,high,low,0,0.1,M,5,0.8,0.1526000000014846,angry,1,0.0816999999992731,angry,1,65
160,sad,low,low,0,0.1,F,5,0.8,0.0684999999998581,sad,1,0.0195000000001073,sad,1,71
161,angry,high,low,0,0.1,F,5,0.8,0.1848000000009051,angry,1,0.1316000000015265,angry,1,58
162,sad,low,low,0,0.1,F,5,0.8,0.1044999999999163,sad,1,0.1154000000021824,sad,1,61
163,sad,low,high,0,0.1,M,5,0.8,0.1641000000015537,sad,1,0.004800000000614,sad,1,73
164,angry,high,low,0,0.1,M,5,0.8,0.0509999999999308,angry,1,0.0568000000007486,angry,1,67
165,sad,low,high,0,0.1,M,5,0.8,0.1008000000006177,sad,1,0.0198999999986426,sad,1,71
166,sad,low,low,0,0.1,F,5,0.8,0.0355000000001837,sad,1,0.0814000000023043,sad,1,65
167,angry,low,low,1,0.1,F,5,0.8,0.0340000000001055,sad,0,0.1200999999978194,sad,0,-50
168,sad,low,high,0,0.1,M,5,0.8,0.1670000000001437,angry,0,0.5558999999987009,sad,1,4
169,angry,high,high,0,0.1,M,5,0.8,0.8561999999992622,angry,1,0.4188999999985299,angry,1,21
170,sad,low,low,0,0.1,F,5,0.8,0.035699999999224,sad,1,0.0204000000021551,sad,1,71
171,angry,low,high,1,0.9,F,6,0.8,0.0519999999999072,sad,0,0.0568999999986772,sad,0,-50
172,sad,high,low,1,0.9,M,6,0.8,0.2073999999984153,sad,1,0.4878999999984899,sad,1,13
173,angry,low,low,1,0.9,M,6,0.8,0.0488000000007105,angry,1,0.0881999999992331,angry,1,63
174,angry,low,high,1,0.9,F,6,0.8,0.1582000000030348,angry,1,0.0226000000013755,angry,1,71
175,sad,high,low,1,0.9,M,6,0.8,0.0863000000008469,sad,1,0.1051999999992858,sad,1,61
176,angry,low,high,1,0.9,F,6,0.8,0.0356999999994513,angry,1,0.0860000000000127,angry,1,63
177,sad,high,low,1,0.9,F,6,0.8,0.1056999999991603,sad,1,0.0720000000001164,sad,1,65
178,sad,high,high,1,0.9,M,6,0.8,0.8454999999999018,angry,0,0.4971999999993386,sad,1,13
179,angry,low,low,1,0.9,M,6,0.8,0.0396999999993568,angry,1,0.071999999999889,angry,1,65
180,sad,high,low,1,0.9,F,6,0.8,0.0083999999985735,sad,1,0.0633000000007086,sad,1,67
181,sad,high,high,1,0.9,F,6,0.8,0.0742000000029747,sad,1,0.0969000000022788,sad,1,63
182,angry,high,high,0,0.9,M,6,0.8,0.5019999999999527,sad,0,0.1059000000022933,sad,0,-50
183,sad,high,high,1,0.9,M,6,0.8,0.557199999999284,angry,0,0.4488999999985026,sad,1,19
184,angry,low,low,1,0.9,F,6,0.8,0.4519999999999982,angry,1,0.40300000000002,angry,1,23
185,angry,low,high,1,0.9,F,6,0.8,0.0092000000029202,angry,1,0.02510000000143,angry,1,71
186,sad,low,low,0,0.9,M,6,0.8,0.119099999997843,angry,0,0.0377999999971052,angry,0,-50
187,angry,low,high,1,0.9,M,6,0.8,0.5060999999975593,angry,1,0.5377999999968779,angry,1,6
188,sad,high,low,1,0.9,F,6,0.8,0.1981000000016592,sad,1,0.0146999999992658,sad,1,73
189,angry,low,low,1,0.9,F,6,0.8,0.1684999999999945,angry,1,0.0784000000021478,angry,1,65
190,sad,high,high,1,0.9,M,6,0.8,0.3018999999985681,sad,1,0.0878000000006977,sad,1,63
191,angry,low,low,1,0.9,M,6,0.8,0.0351999999993495,angry,1,0.1481999999994059,angry,1,56
192,angry,high,high,0,0.9,F,6,0.8,0.0517000000029383,sad,0,0.0049000000021806,sad,0,-50
193,sad,high,high,1,0.9,F,6,0.8,0.0095000000001164,angry,0,0.6539000000020678,sad,1,-8
194,angry,low,low,1,0.9,M,6,0.8,0.0508000000006632,angry,1,0.0603999999984807,angry,1,67
195,angry,low,high,1,0.9,F,6,0.8,0.1024000000022624,angry,1,0.0908000000008542,angry,1,63
196,angry,low,low,1,0.9,F,6,0.8,0.0673000000008414,angry,1,0.1210000000000945,angry,1,58
197,sad,high,low,1,0.9,F,6,0.8,0.0558000000007723,sad,1,0.098200000002862,sad,1,63
198,angry,low,high,1,0.9,M,6,0.8,0.1583000000007359,angry,1,0.0709000000022115,angry,1,65
199,sad,high,low,1,0.9,F,6,0.8,0.0425999999977193,sad,1,0.1034999999999399,sad,1,61
200,sad,high,high,1,0.9,F,6,0.8,0.0216999999993277,sad,1,0.0078000000007705,sad,1,73
